<?xml version="1.0" encoding="UTF-8"?>

<Bundle xmlns="http://hl7.org/fhir">
  <id value="EMR"/>
  <type value="transaction"/>
  <entry>
    <fullUrl value="Patient/HIVPatientExample"/>
    <resource>
      <Patient>
        <id value="HIVPatientExample"/>
        <meta>
          <profile value="http://openhie.org/fhir/hiv-cbs/StructureDefinition/hiv-patient"/>
        </meta>
        <text>
          <status value="extensions"/><div xmlns="http://www.w3.org/1999/xhtml"><p><b>Generated Narrative: Patient</b><a name="HIVPatientExample"> </a></p><div style="display: inline-block; background-color: #d9e0e7; padding: 6px; margin: 4px; border: 1px solid #8da1b4; border-radius: 5px; line-height: 60%"><p style="margin-bottom: 0px">Resource Patient &quot;HIVPatientExample&quot; </p><p style="margin-bottom: 0px">Profile: <a href="StructureDefinition-hiv-patient.html">Patient</a></p></div><p><b>Key HIV Population</b>: Current drug user (finding) <span style="background: LightGoldenRodYellow; margin: 4px; border: 1px solid khaki"> (<a href="https://browser.ihtsdotools.org/">SNOMED CT</a>#417284009)</span></p><p><b>identifier</b>: id: NID1234567</p><p><b>active</b>: true</p><p><b>name</b>: Jane Maria Smith (OFFICIAL)</p><p><b>telecom</b>: <a href="tel:+27821234567">+27821234567</a>, <a href="mailto:someone@example.com">someone@example.com</a></p><p><b>gender</b>: female</p><p><b>birthDate</b>: 1990-12-12</p><p><b>address</b>: Cape Town Western Province South Africa </p><p><b>maritalStatus</b>: Married <span style="background: LightGoldenRodYellow; margin: 4px; border: 1px solid khaki"> (<a href="http://terminology.hl7.org/5.0.0/CodeSystem-v3-MaritalStatus.html">MaritalStatus</a>#M)</span></p><h3>Contacts</h3><table class="grid"><tr><td>-</td><td><b>Relationship</b></td><td><b>Name</b></td><td><b>Telecom</b></td></tr><tr><td>*</td><td>Next-of-Kin <span style="background: LightGoldenRodYellow; margin: 4px; border: 1px solid khaki"> (<a href="http://terminology.hl7.org/5.0.0/CodeSystem-v2-0131.html">contactRole2</a>#N)</span></td><td>John Doe </td><td><a href="tel:+27829999999">+27829999999</a></td></tr></table><p><b>managingOrganization</b>: <a href="Organization-HIVOrganizationExample.html">Organization/HIVOrganizationExample</a> &quot;HIV Test Services Health Facility&quot;</p></div>
        </text>
        <extension url="http://openhie.org/fhir/hiv-cbs/StructureDefinition/key-population-status">
          <valueCodeableConcept>
            <coding>
              <system value="http://snomed.info/sct"/>
              <code value="417284009"/>
            </coding>
          </valueCodeableConcept>
        </extension>
        <identifier>
          <system value="http://openhie.org/fhir/hiv-cbs/identifier/nid"/>
          <value value="NID1234567"/>
        </identifier>
        <active value="true"/>
        <name>
          <use value="official"/>
          <family value="Smith"/>
          <given value="Jane"/>
          <given value="Maria"/>
        </name>
        <telecom>
          <system value="phone"/>
          <value value="+27821234567"/>
        </telecom>
        <telecom>
          <system value="email"/>
          <value value="someone@example.com"/>
        </telecom>
        <gender value="female"/>
        <birthDate value="1990-12-12"/>
        <address>
          <city value="Cape Town"/>
          <district value="City of Cape Town"/>
          <state value="Western Province"/>
          <country value="South Africa"/>
        </address>
        <maritalStatus>
          <coding>
            <system value="http://terminology.hl7.org/CodeSystem/v3-MaritalStatus"/>
            <code value="M"/>
          </coding>
        </maritalStatus>
        <contact>
          <relationship>
            <coding>
              <system value="http://terminology.hl7.org/CodeSystem/v2-0131"/>
              <code value="N"/>
            </coding>
          </relationship>
          <name>
            <family value="Doe"/>
            <given value="John"/>
          </name>
          <telecom>
            <system value="phone"/>
            <value value="+27829999999"/>
          </telecom>
        </contact>
        <managingOrganization>
          <reference value="Organization/HIVOrganizationExample"/>
        </managingOrganization>
      </Patient>
    </resource>
    <request>
      <method value="PUT"/>
      <url value="Patient/HIVPatientExample"/>
    </request>
  </entry>
  <entry>
    <fullUrl value="Encounter/TargetFacilityEncounterExample"/>
    <resource>
      <Encounter>
        <id value="TargetFacilityEncounterExample"/>
        <meta>
          <profile value="http://openhie.org/fhir/hiv-cbs/StructureDefinition/target-facility-encounter"/>
        </meta>
        <text>
          <status value="extensions"/><div xmlns="http://www.w3.org/1999/xhtml"><p><b>Generated Narrative: Encounter</b><a name="TargetFacilityEncounterExample"> </a></p><div style="display: inline-block; background-color: #d9e0e7; padding: 6px; margin: 4px; border: 1px solid #8da1b4; border-radius: 5px; line-height: 60%"><p style="margin-bottom: 0px">Resource Encounter &quot;TargetFacilityEncounterExample&quot; </p><p style="margin-bottom: 0px">Profile: <a href="StructureDefinition-target-facility-encounter.html">Target Facility Encounter</a></p></div><p><b>Next Appointment Date</b>: 2022-10-22</p><p><b>status</b>: finished</p><p><b>class</b>: ambulatory (Details: http://terminology.hl7.org/CodeSystem/v3-ActCode code AMB = 'ambulatory', stated as 'null')</p><p><b>subject</b>: <a href="#Patient_HIVPatientExample">See above (Patient/HIVPatientExample)</a></p><p><b>episodeOfCare</b>: <a href="#EpisodeOfCare_HIVEpisodeOfCareExample">See above (EpisodeOfCare/HIVEpisodeOfCareExample)</a></p><p><b>period</b>: 2022-12-01 --&gt; 2023-01-20</p><p><b>serviceProvider</b>: <a href="Organization-HIVOrganizationExample.html">Organization/HIVOrganizationExample</a> &quot;HIV Test Services Health Facility&quot;</p><p><b>partOf</b>: <a href="#Encounter_TransferringFacilityEncounterExample">See above (Encounter/TransferringFacilityEncounterExample)</a></p></div>
        </text>
        <extension url="http://openhie.org/fhir/hiv-cbs/StructureDefinition/hiv-care-next-visit">
          <valueDateTime value="2022-10-22"/>
        </extension>
        <status value="finished"/>
        <class>
          <system value="http://terminology.hl7.org/CodeSystem/v3-ActCode"/>
          <code value="AMB"/>
        </class>
        <subject>
          <reference value="Patient/HIVPatientExample"/>
        </subject>
        <episodeOfCare>
          <reference value="EpisodeOfCare/HIVEpisodeOfCareExample"/>
        </episodeOfCare>
        <period>
          <start value="2022-12-01"/>
          <end value="2023-01-20"/>
        </period>
        <serviceProvider>
          <reference value="Organization/HIVOrganizationExample"/>
        </serviceProvider>
        <partOf>
          <reference value="Encounter/TransferringFacilityEncounterExample"/>
        </partOf>
      </Encounter>
    </resource>
    <request>
      <method value="PUT"/>
      <url value="Encounter/TargetFacilityEncounterExample"/>
    </request>
  </entry>
  <entry>
    <fullUrl value="Encounter/TransferringFacilityEncounterExample"/>
    <resource>
      <Encounter>
        <id value="TransferringFacilityEncounterExample"/>
        <meta>
          <profile value="http://openhie.org/fhir/hiv-cbs/StructureDefinition/transferring-facility-encounter"/>
        </meta>
        <text>
          <status value="generated"/><div xmlns="http://www.w3.org/1999/xhtml"><p><b>Generated Narrative: Encounter</b><a name="TransferringFacilityEncounterExample"> </a></p><div style="display: inline-block; background-color: #d9e0e7; padding: 6px; margin: 4px; border: 1px solid #8da1b4; border-radius: 5px; line-height: 60%"><p style="margin-bottom: 0px">Resource Encounter &quot;TransferringFacilityEncounterExample&quot; </p><p style="margin-bottom: 0px">Profile: <a href="StructureDefinition-transferring-facility-encounter.html">Transferring Facility Encounter</a></p></div><p><b>status</b>: finished</p><p><b>class</b>: ambulatory (Details: http://terminology.hl7.org/CodeSystem/v3-ActCode code AMB = 'ambulatory', stated as 'null')</p><p><b>period</b>: 2022-12-01 --&gt; 2023-01-20</p><p><b>serviceProvider</b>: <a href="Organization-HIVOrganizationExample.html">Organization/HIVOrganizationExample</a> &quot;HIV Test Services Health Facility&quot;</p></div>
        </text>
        <status value="finished"/>
        <class>
          <system value="http://terminology.hl7.org/CodeSystem/v3-ActCode"/>
          <code value="AMB"/>
        </class>
        <period>
          <start value="2022-12-01"/>
          <end value="2023-01-20"/>
        </period>
        <serviceProvider>
          <reference value="Organization/HIVOrganizationExample"/>
        </serviceProvider>
      </Encounter>
    </resource>
    <request>
      <method value="PUT"/>
      <url value="Encounter/TransferringFacilityEncounterExample"/>
    </request>
  </entry>
  <entry>
    <fullUrl value="Observation/HIVTestResultExample"/>
    <resource>
      <Observation>
        <id value="HIVTestResultExample"/>
        <meta>
          <profile value="http://openhie.org/fhir/hiv-cbs/StructureDefinition/hiv-test-results"/>
        </meta>
        <text>
          <status value="generated"/><div xmlns="http://www.w3.org/1999/xhtml"><p><b>Generated Narrative: Observation</b><a name="HIVTestResultExample"> </a></p><div style="display: inline-block; background-color: #d9e0e7; padding: 6px; margin: 4px; border: 1px solid #8da1b4; border-radius: 5px; line-height: 60%"><p style="margin-bottom: 0px">Resource Observation &quot;HIVTestResultExample&quot; </p><p style="margin-bottom: 0px">Profile: <a href="StructureDefinition-hiv-test-results.html">Lab Results</a></p></div><p><b>status</b>: final</p><p><b>code</b>: HIV 1 nucleic acid assay <span style="background: LightGoldenRodYellow; margin: 4px; border: 1px solid khaki"> (<a href="https://browser.ihtsdotools.org/">SNOMED CT</a>#398579006)</span></p><p><b>subject</b>: <a href="#Patient_HIVPatientExample">See above (Patient/HIVPatientExample)</a></p><p><b>encounter</b>: <a href="#Encounter_TargetFacilityEncounterExample">See above (Encounter/TargetFacilityEncounterExample)</a></p><p><b>effective</b>: 2022-11-30</p><p><b>performer</b>: <a href="Organization-HIVOrganizationExample.html">Organization/HIVOrganizationExample</a> &quot;HIV Test Services Health Facility&quot;</p><p><b>value</b>: 1001</p><p><b>interpretation</b>: Uncontrolled <span style="background: LightGoldenRodYellow; margin: 4px; border: 1px solid khaki"> (<a href="https://browser.ihtsdotools.org/">SNOMED CT</a>#19032002)</span></p><p><b>note</b>: Viral load not suppressed (By Organization/HIVOrganizationExample @Feb 7, 2015, 6:28:17 PM)</p></div>
        </text>
        <status value="final"/>
        <code>
          <coding>
            <system value="http://snomed.info/sct"/>
            <code value="398579006"/>
          </coding>
        </code>
        <subject>
          <reference value="Patient/HIVPatientExample"/>
        </subject>
        <encounter>
          <reference value="Encounter/TargetFacilityEncounterExample"/>
        </encounter>
        <effectiveDateTime value="2022-11-30"/>
        <performer>
          <reference value="Organization/HIVOrganizationExample"/>
        </performer>
        <valueInteger value="1001"/>
        <interpretation>
          <coding>
            <system value="http://snomed.info/sct"/>
            <code value="19032002"/>
          </coding>
        </interpretation>
        <note>
          <authorReference>
            <reference value="Organization/HIVOrganizationExample"/>
          </authorReference>
          <time value="2015-02-07T13:28:17-05:00"/>
          <text value="Viral load not suppressed"/>
        </note>
      </Observation>
    </resource>
    <request>
      <method value="PUT"/>
      <url value="Observation/HIVTestResultExample"/>
    </request>
  </entry>
  <entry>
    <fullUrl value="Condition/HIVDiagnosisExample"/>
    <resource>
      <Condition>
        <id value="HIVDiagnosisExample"/>
        <meta>
          <profile value="http://openhie.org/fhir/hiv-cbs/StructureDefinition/hiv-diagnosis"/>
        </meta>
        <text>
          <status value="generated"/><div xmlns="http://www.w3.org/1999/xhtml"><p><b>Generated Narrative: Condition</b><a name="HIVDiagnosisExample"> </a></p><div style="display: inline-block; background-color: #d9e0e7; padding: 6px; margin: 4px; border: 1px solid #8da1b4; border-radius: 5px; line-height: 60%"><p style="margin-bottom: 0px">Resource Condition &quot;HIVDiagnosisExample&quot; </p><p style="margin-bottom: 0px">Profile: <a href="StructureDefinition-hiv-diagnosis.html">Diagnosis</a></p></div><p><b>identifier</b>: id: abc123</p><p><b>clinicalStatus</b>: Active <span style="background: LightGoldenRodYellow; margin: 4px; border: 1px solid khaki"> (<a href="http://terminology.hl7.org/5.0.0/CodeSystem-condition-clinical.html">Condition Clinical Status Codes</a>#active)</span></p><p><b>verificationStatus</b>: Confirmed <span style="background: LightGoldenRodYellow; margin: 4px; border: 1px solid khaki"> (<a href="http://terminology.hl7.org/5.0.0/CodeSystem-condition-ver-status.html">ConditionVerificationStatus</a>#confirmed)</span></p><p><b>code</b>: Human immunodeficiency virus infection <span style="background: LightGoldenRodYellow; margin: 4px; border: 1px solid khaki"> (<a href="https://browser.ihtsdotools.org/">SNOMED CT</a>#86406008)</span></p><p><b>subject</b>: <a href="#Patient_HIVPatientExample">See above (Patient/HIVPatientExample)</a></p><p><b>encounter</b>: <a href="#Encounter_TargetFacilityEncounterExample">See above (Encounter/TargetFacilityEncounterExample)</a></p><p><b>recordedDate</b>: 2021-05-18</p><p><b>note</b>: Additional information regarding the HIV diagnosis (By Organization/HIVOrganizationExample @Feb 7, 2015, 6:28:17 PM)</p></div>
        </text>
        <identifier>
          <system value="http://openhie.org/fhir/hiv-cbs/identifier/hiv-diagnosis"/>
          <value value="abc123"/>
        </identifier>
        <clinicalStatus>
          <coding>
            <system value="http://terminology.hl7.org/CodeSystem/condition-clinical"/>
            <code value="active"/>
          </coding>
        </clinicalStatus>
        <verificationStatus>
          <coding>
            <system value="http://terminology.hl7.org/CodeSystem/condition-ver-status"/>
            <code value="confirmed"/>
          </coding>
        </verificationStatus>
        <code>
          <coding>
            <system value="http://snomed.info/sct"/>
            <code value="86406008"/>
          </coding>
        </code>
        <subject>
          <reference value="Patient/HIVPatientExample"/>
        </subject>
        <encounter>
          <reference value="Encounter/TargetFacilityEncounterExample"/>
        </encounter>
        <recordedDate value="2021-05-18"/>
        <note>
          <authorReference>
            <reference value="Organization/HIVOrganizationExample"/>
          </authorReference>
          <time value="2015-02-07T13:28:17-05:00"/>
          <text value="Additional information regarding the HIV diagnosis"/>
        </note>
      </Condition>
    </resource>
    <request>
      <method value="PUT"/>
      <url value="Condition/HIVDiagnosisExample"/>
    </request>
  </entry>
  <entry>
    <fullUrl value="Observation/DeathExample"/>
    <resource>
      <Observation>
        <id value="DeathExample"/>
        <meta>
          <profile value="http://openhie.org/fhir/hiv-cbs/StructureDefinition/death"/>
        </meta>
        <text>
          <status value="generated"/><div xmlns="http://www.w3.org/1999/xhtml"><p><b>Generated Narrative: Observation</b><a name="DeathExample"> </a></p><div style="display: inline-block; background-color: #d9e0e7; padding: 6px; margin: 4px; border: 1px solid #8da1b4; border-radius: 5px; line-height: 60%"><p style="margin-bottom: 0px">Resource Observation &quot;DeathExample&quot; </p><p style="margin-bottom: 0px">Profile: <a href="StructureDefinition-death.html">Patient Death</a></p></div><p><b>status</b>: final</p><p><b>code</b>: Dead (finding) <span style="background: LightGoldenRodYellow; margin: 4px; border: 1px solid khaki"> (<a href="https://browser.ihtsdotools.org/">SNOMED CT</a>#419099009)</span></p><p><b>subject</b>: <a href="#Patient_HIVPatientExample">See above (Patient/HIVPatientExample)</a></p><p><b>encounter</b>: <a href="#Encounter_TargetFacilityEncounterExample">See above (Encounter/TargetFacilityEncounterExample)</a></p><p><b>effective</b>: 2023-02-05</p><p><b>note</b>: Deatils regarding death (By Organization/HIVOrganizationExample @Feb 7, 2015, 6:28:17 PM)</p></div>
        </text>
        <status value="final"/>
        <code>
          <coding>
            <system value="http://snomed.info/sct"/>
            <code value="419099009"/>
          </coding>
        </code>
        <subject>
          <reference value="Patient/HIVPatientExample"/>
        </subject>
        <encounter>
          <reference value="Encounter/TargetFacilityEncounterExample"/>
        </encounter>
        <effectiveDateTime value="2023-02-05"/>
        <note>
          <authorReference>
            <reference value="Organization/HIVOrganizationExample"/>
          </authorReference>
          <time value="2015-02-07T13:28:17-05:00"/>
          <text value="Deatils regarding death"/>
        </note>
      </Observation>
    </resource>
    <request>
      <method value="PUT"/>
      <url value="Observation/DeathExample"/>
    </request>
  </entry>
  <entry>
    <fullUrl value="Observation/DateHIVTestDoneExample"/>
    <resource>
      <Observation>
        <id value="DateHIVTestDoneExample"/>
        <meta>
          <profile value="http://openhie.org/fhir/hiv-cbs/StructureDefinition/date-hiv-test-done"/>
        </meta>
        <text>
          <status value="generated"/><div xmlns="http://www.w3.org/1999/xhtml"><p><b>Generated Narrative: Observation</b><a name="DateHIVTestDoneExample"> </a></p><div style="display: inline-block; background-color: #d9e0e7; padding: 6px; margin: 4px; border: 1px solid #8da1b4; border-radius: 5px; line-height: 60%"><p style="margin-bottom: 0px">Resource Observation &quot;DateHIVTestDoneExample&quot; </p><p style="margin-bottom: 0px">Profile: <a href="StructureDefinition-date-hiv-test-done.html">Date HIV Test Done</a></p></div><p><b>status</b>: final</p><p><b>code</b>: HIV viral load <span style="background: LightGoldenRodYellow; margin: 4px; border: 1px solid khaki"> (<a href="https://browser.ihtsdotools.org/">SNOMED CT</a>#315124004)</span></p><p><b>subject</b>: <a href="#Patient_HIVPatientExample">See above (Patient/HIVPatientExample)</a></p><p><b>encounter</b>: <a href="#Encounter_TargetFacilityEncounterExample">See above (Encounter/TargetFacilityEncounterExample)</a></p><p><b>effective</b>: 2022-12-10</p><p><b>note</b>: Additional information regarding the HIV test (By Organization/HIVOrganizationExample @Feb 7, 2015, 6:28:17 PM)</p></div>
        </text>
        <status value="final"/>
        <code>
          <coding>
            <system value="http://snomed.info/sct"/>
            <code value="315124004"/>
          </coding>
        </code>
        <subject>
          <reference value="Patient/HIVPatientExample"/>
        </subject>
        <encounter>
          <reference value="Encounter/TargetFacilityEncounterExample"/>
        </encounter>
        <effectiveDateTime value="2022-12-10"/>
        <note>
          <authorReference>
            <reference value="Organization/HIVOrganizationExample"/>
          </authorReference>
          <time value="2015-02-07T13:28:17-05:00"/>
          <text value="Additional information regarding the HIV test"/>
        </note>
      </Observation>
    </resource>
    <request>
      <method value="PUT"/>
      <url value="Observation/DateHIVTestDoneExample"/>
    </request>
  </entry>
  <entry>
    <fullUrl value="CarePlan/ARVTreatmentExample"/>
    <resource>
      <CarePlan>
        <id value="ARVTreatmentExample"/>
        <meta>
          <profile value="http://openhie.org/fhir/hiv-cbs/StructureDefinition/hiv-arv-treatment"/>
        </meta>
        <text>
          <status value="generated"/><div xmlns="http://www.w3.org/1999/xhtml"><p><b>Generated Narrative: CarePlan</b><a name="ARVTreatmentExample"> </a></p><div style="display: inline-block; background-color: #d9e0e7; padding: 6px; margin: 4px; border: 1px solid #8da1b4; border-radius: 5px; line-height: 60%"><p style="margin-bottom: 0px">Resource CarePlan &quot;ARVTreatmentExample&quot; </p><p style="margin-bottom: 0px">Profile: <a href="StructureDefinition-hiv-arv-treatment.html">ARV Treatment</a></p></div><p><b>status</b>: active</p><p><b>intent</b>: plan</p><p><b>subject</b>: <a href="#Patient_HIVPatientExample">See above (Patient/HIVPatientExample)</a></p><p><b>encounter</b>: <a href="#Encounter_TargetFacilityEncounterExample">See above (Encounter/TargetFacilityEncounterExample)</a></p><p><b>period</b>: 2022-12-01 --&gt; 2022-12-01</p><blockquote><p><b>activity</b></p><h3>Details</h3><table class="grid"><tr><td>-</td><td><b>Extension</b></td><td><b>Kind</b></td><td><b>Code</b></td><td><b>Status</b></td><td><b>Product[x]</b></td></tr><tr><td>*</td><td/><td>MedicationRequest</td><td>HIV ART medication <span style="background: LightGoldenRodYellow; margin: 4px; border: 1px solid khaki"> (<a href="https://loinc.org/">LOINC</a>#45260-7)</span></td><td>in-progress</td><td>TDF/3TC/DTG <span style="background: LightGoldenRodYellow; margin: 4px; border: 1px solid khaki"> ()</span></td></tr></table></blockquote><p><b>note</b>: Additional information regarding the ARV treatment prescribed (By Organization/HIVOrganizationExample @Feb 7, 2015, 6:28:17 PM)</p></div>
        </text>
        <status value="active"/>
        <intent value="plan"/>
        <subject>
          <reference value="Patient/HIVPatientExample"/>
        </subject>
        <encounter>
          <reference value="Encounter/TargetFacilityEncounterExample"/>
        </encounter>
        <period>
          <start value="2022-12-01"/>
          <end value="2022-12-01"/>
        </period>
        <activity>
          <detail>
            <extension url="http://openhie.org/fhir/hiv-cbs/StructureDefinition/art-regimen-line">
              <valueCodeableConcept>
                <coding>
                  <system value="http://snomed.info/sct"/>
                  <code value="708255002"/>
                </coding>
              </valueCodeableConcept>
            </extension>
            <kind value="MedicationRequest"/>
            <code>
              <coding>
                <system value="http://loinc.org"/>
                <code value="45260-7"/>
              </coding>
            </code>
            <status value="in-progress"/>
            <productCodeableConcept>
              <text value="TDF/3TC/DTG"/>
            </productCodeableConcept>
          </detail>
        </activity>
        <note>
          <authorReference>
            <reference value="Organization/HIVOrganizationExample"/>
          </authorReference>
          <time value="2015-02-07T13:28:17-05:00"/>
          <text value="Additional information regarding the ARV treatment prescribed"/>
        </note>
      </CarePlan>
    </resource>
    <request>
      <method value="PUT"/>
      <url value="CarePlan/ARVTreatmentExample"/>
    </request>
  </entry>
  <entry>
    <fullUrl value="EpisodeOfCare/HIVEpisodeOfCareExample"/>
    <resource>
      <EpisodeOfCare>
        <id value="HIVEpisodeOfCareExample"/>
        <meta>
          <profile value="http://openhie.org/fhir/hiv-cbs/StructureDefinition/hiv-episode-of-care"/>
        </meta>
        <text>
          <status value="generated"/><div xmlns="http://www.w3.org/1999/xhtml"><p><b>Generated Narrative: EpisodeOfCare</b><a name="HIVEpisodeOfCareExample"> </a></p><div style="display: inline-block; background-color: #d9e0e7; padding: 6px; margin: 4px; border: 1px solid #8da1b4; border-radius: 5px; line-height: 60%"><p style="margin-bottom: 0px">Resource EpisodeOfCare &quot;HIVEpisodeOfCareExample&quot; </p><p style="margin-bottom: 0px">Profile: <a href="StructureDefinition-hiv-episode-of-care.html">Patient Enrollment Type</a></p></div><p><b>identifier</b>: id: abc123</p><p><b>status</b>: active</p><p><b>type</b>: Restart of medication <span style="background: LightGoldenRodYellow; margin: 4px; border: 1px solid khaki"> (<a href="https://browser.ihtsdotools.org/">SNOMED CT</a>#182837001)</span></p><h3>Diagnoses</h3><table class="grid"><tr><td>-</td><td><b>Condition</b></td></tr><tr><td>*</td><td><a href="#Condition_HIVDiagnosisExample">See above (Condition/HIVDiagnosisExample)</a></td></tr></table><p><b>patient</b>: <a href="#Patient_HIVPatientExample">See above (Patient/HIVPatientExample)</a></p><p><b>period</b>: 2021-05-18 --&gt; 2021-05-18</p></div>
        </text>
        <identifier>
          <system value="http://openhie.org/fhir/hiv-cbs/identifier/enrollment-unique-id"/>
          <value value="abc123"/>
        </identifier>
        <status value="active"/>
        <type>
          <coding>
            <system value="http://snomed.info/sct"/>
            <code value="182837001"/>
          </coding>
        </type>
        <diagnosis>
          <condition>
            <reference value="Condition/HIVDiagnosisExample"/>
          </condition>
        </diagnosis>
        <patient>
          <reference value="Patient/HIVPatientExample"/>
        </patient>
        <period>
          <start value="2021-05-18"/>
          <end value="2021-05-18"/>
        </period>
      </EpisodeOfCare>
    </resource>
    <request>
      <method value="PUT"/>
      <url value="EpisodeOfCare/HIVEpisodeOfCareExample"/>
    </request>
  </entry>
</Bundle>