{
  "resourceType" : "Bundle",
  "id" : "EMR",
  "type" : "transaction",
  "entry" : [{
    "fullUrl" : "Patient/HIVPatientExample",
    "resource" : {
      "resourceType" : "Patient",
      "id" : "HIVPatientExample",
      "meta" : {
        "profile" : ["http://openhie.org/fhir/hiv-cbs/StructureDefinition/hiv-patient"]
      },
      "text" : {
        "status" : "extensions",
        "div" : "<div xmlns=\"http://www.w3.org/1999/xhtml\"><p><b>Generated Narrative: Patient</b><a name=\"HIVPatientExample\"> </a></p><div style=\"display: inline-block; background-color: #d9e0e7; padding: 6px; margin: 4px; border: 1px solid #8da1b4; border-radius: 5px; line-height: 60%\"><p style=\"margin-bottom: 0px\">Resource Patient &quot;HIVPatientExample&quot; </p><p style=\"margin-bottom: 0px\">Profile: <a href=\"StructureDefinition-hiv-patient.html\">Patient</a></p></div><p><b>Key HIV Population</b>: HIV key population <span style=\"background: LightGoldenRodYellow; margin: 4px; border: 1px solid khaki\"> (<a href=\"https://browser.ihtsdotools.org/\">SNOMED CT</a>#417284009 &quot;Current drug user&quot;)</span></p><p><b>identifier</b>: Medical record number: ORG1-0765712, id:\u00a0NID1234567</p><p><b>active</b>: true</p><p><b>name</b>: Jane Maria Smith (OFFICIAL)</p><p><b>telecom</b>: <a href=\"tel:+27821234567\">+27821234567</a>, <a href=\"mailto:someone@example.com\">someone@example.com</a></p><p><b>gender</b>: female</p><p><b>birthDate</b>: 1990-12-12</p><p><b>address</b>: Cape Town Western Province South Africa </p><p><b>maritalStatus</b>: Married <span style=\"background: LightGoldenRodYellow; margin: 4px; border: 1px solid khaki\"> (<a href=\"http://terminology.hl7.org/5.0.0/CodeSystem-v3-MaritalStatus.html\">MaritalStatus</a>#M)</span></p><h3>Contacts</h3><table class=\"grid\"><tr><td>-</td><td><b>Relationship</b></td><td><b>Name</b></td><td><b>Telecom</b></td></tr><tr><td>*</td><td>Next-of-Kin <span style=\"background: LightGoldenRodYellow; margin: 4px; border: 1px solid khaki\"> (<a href=\"http://terminology.hl7.org/5.0.0/CodeSystem-v2-0131.html\">contactRole2</a>#N)</span></td><td>John Doe </td><td><a href=\"tel:+27829999999\">+27829999999</a></td></tr></table><p><b>managingOrganization</b>: <a href=\"Organization-HIVOrganizationExample.html\">Organization/HIVOrganizationExample</a> &quot;HIV Test Services Health Facility&quot;</p></div>"
      },
      "extension" : [{
        "url" : "http://openhie.org/fhir/hiv-cbs/StructureDefinition/key-population-status",
        "valueCodeableConcept" : {
          "coding" : [{
            "system" : "http://snomed.info/sct",
            "code" : "417284009",
            "display" : "Current drug user"
          }],
          "text" : "HIV key population"
        }
      }],
      "identifier" : [{
        "type" : {
          "coding" : [{
            "system" : "http://terminology.hl7.org/CodeSystem/v2-0203",
            "code" : "MR",
            "display" : "Medical record number"
          }]
        },
        "system" : "http://openhie.org/fhir/hiv-cbs/identifier/mr",
        "value" : "ORG1-0765712"
      },
      {
        "system" : "http://openhie.org/fhir/hiv-cbs/identifier/nid",
        "value" : "NID1234567"
      }],
      "active" : true,
      "name" : [{
        "use" : "official",
        "family" : "Smith",
        "given" : ["Jane",
        "Maria"]
      }],
      "telecom" : [{
        "system" : "phone",
        "value" : "+27821234567"
      },
      {
        "system" : "email",
        "value" : "someone@example.com"
      }],
      "gender" : "female",
      "birthDate" : "1990-12-12",
      "address" : [{
        "city" : "Cape Town",
        "district" : "City of Cape Town",
        "state" : "Western Province",
        "country" : "South Africa"
      }],
      "maritalStatus" : {
        "coding" : [{
          "system" : "http://terminology.hl7.org/CodeSystem/v3-MaritalStatus",
          "code" : "M"
        }]
      },
      "contact" : [{
        "relationship" : [{
          "coding" : [{
            "system" : "http://terminology.hl7.org/CodeSystem/v2-0131",
            "code" : "N"
          }]
        }],
        "name" : {
          "family" : "Doe",
          "given" : ["John"]
        },
        "telecom" : [{
          "system" : "phone",
          "value" : "+27829999999"
        }]
      }],
      "managingOrganization" : {
        "reference" : "Organization/HIVOrganizationExample"
      }
    },
    "request" : {
      "method" : "PUT",
      "url" : "Patient/HIVPatientExample"
    }
  },
  {
    "fullUrl" : "Encounter/TargetFacilityEncounterExample",
    "resource" : {
      "resourceType" : "Encounter",
      "id" : "TargetFacilityEncounterExample",
      "meta" : {
        "profile" : ["http://openhie.org/fhir/hiv-cbs/StructureDefinition/target-facility-encounter"]
      },
      "text" : {
        "status" : "extensions",
        "div" : "<div xmlns=\"http://www.w3.org/1999/xhtml\"><p><b>Generated Narrative: Encounter</b><a name=\"TargetFacilityEncounterExample\"> </a></p><div style=\"display: inline-block; background-color: #d9e0e7; padding: 6px; margin: 4px; border: 1px solid #8da1b4; border-radius: 5px; line-height: 60%\"><p style=\"margin-bottom: 0px\">Resource Encounter &quot;TargetFacilityEncounterExample&quot; </p><p style=\"margin-bottom: 0px\">Profile: <a href=\"StructureDefinition-target-facility-encounter.html\">Target Facility Encounter</a></p></div><p><b>Next Appointment Date</b>: 2022-10-22</p><p><b>status</b>: finished</p><p><b>class</b>: ambulatory (Details: http://terminology.hl7.org/CodeSystem/v3-ActCode code AMB = 'ambulatory', stated as 'null')</p><p><b>subject</b>: <a href=\"#Patient_HIVPatientExample\">See above (Patient/HIVPatientExample)</a></p><p><b>episodeOfCare</b>: <a href=\"#EpisodeOfCare_HIVEpisodeOfCareExample\">See above (EpisodeOfCare/HIVEpisodeOfCareExample)</a></p><p><b>period</b>: 2022-12-01 --&gt; 2023-01-20</p><p><b>serviceProvider</b>: <a href=\"Organization-HIVOrganizationExample.html\">Organization/HIVOrganizationExample</a> &quot;HIV Test Services Health Facility&quot;</p><p><b>partOf</b>: <a href=\"#Encounter_TransferringFacilityEncounterExample\">See above (Encounter/TransferringFacilityEncounterExample)</a></p></div>"
      },
      "extension" : [{
        "url" : "http://openhie.org/fhir/hiv-cbs/StructureDefinition/hiv-care-next-visit",
        "valueDateTime" : "2022-10-22"
      }],
      "status" : "finished",
      "class" : {
        "system" : "http://terminology.hl7.org/CodeSystem/v3-ActCode",
        "code" : "AMB"
      },
      "subject" : {
        "reference" : "Patient/HIVPatientExample"
      },
      "episodeOfCare" : [{
        "reference" : "EpisodeOfCare/HIVEpisodeOfCareExample"
      }],
      "period" : {
        "start" : "2022-12-01",
        "end" : "2023-01-20"
      },
      "serviceProvider" : {
        "reference" : "Organization/HIVOrganizationExample"
      },
      "partOf" : {
        "reference" : "Encounter/TransferringFacilityEncounterExample"
      }
    },
    "request" : {
      "method" : "PUT",
      "url" : "Encounter/TargetFacilityEncounterExample"
    }
  },
  {
    "fullUrl" : "Encounter/TransferringFacilityEncounterExample",
    "resource" : {
      "resourceType" : "Encounter",
      "id" : "TransferringFacilityEncounterExample",
      "meta" : {
        "profile" : ["http://openhie.org/fhir/hiv-cbs/StructureDefinition/transferring-facility-encounter"]
      },
      "text" : {
        "status" : "generated",
        "div" : "<div xmlns=\"http://www.w3.org/1999/xhtml\"><p><b>Generated Narrative: Encounter</b><a name=\"TransferringFacilityEncounterExample\"> </a></p><div style=\"display: inline-block; background-color: #d9e0e7; padding: 6px; margin: 4px; border: 1px solid #8da1b4; border-radius: 5px; line-height: 60%\"><p style=\"margin-bottom: 0px\">Resource Encounter &quot;TransferringFacilityEncounterExample&quot; </p><p style=\"margin-bottom: 0px\">Profile: <a href=\"StructureDefinition-transferring-facility-encounter.html\">Transferring Facility Encounter</a></p></div><p><b>status</b>: finished</p><p><b>class</b>: ambulatory (Details: http://terminology.hl7.org/CodeSystem/v3-ActCode code AMB = 'ambulatory', stated as 'null')</p><p><b>period</b>: 2022-12-01 --&gt; 2023-01-20</p><p><b>serviceProvider</b>: <a href=\"Organization-HIVOrganizationExample.html\">Organization/HIVOrganizationExample</a> &quot;HIV Test Services Health Facility&quot;</p></div>"
      },
      "status" : "finished",
      "class" : {
        "system" : "http://terminology.hl7.org/CodeSystem/v3-ActCode",
        "code" : "AMB"
      },
      "period" : {
        "start" : "2022-12-01",
        "end" : "2023-01-20"
      },
      "serviceProvider" : {
        "reference" : "Organization/HIVOrganizationExample"
      }
    },
    "request" : {
      "method" : "PUT",
      "url" : "Encounter/TransferringFacilityEncounterExample"
    }
  },
  {
    "fullUrl" : "Condition/HIVDiagnosisExample",
    "resource" : {
      "resourceType" : "Condition",
      "id" : "HIVDiagnosisExample",
      "meta" : {
        "profile" : ["http://openhie.org/fhir/hiv-cbs/StructureDefinition/hiv-diagnosis"]
      },
      "text" : {
        "status" : "generated",
        "div" : "<div xmlns=\"http://www.w3.org/1999/xhtml\"><p><b>Generated Narrative: Condition</b><a name=\"HIVDiagnosisExample\"> </a></p><div style=\"display: inline-block; background-color: #d9e0e7; padding: 6px; margin: 4px; border: 1px solid #8da1b4; border-radius: 5px; line-height: 60%\"><p style=\"margin-bottom: 0px\">Resource Condition &quot;HIVDiagnosisExample&quot; </p><p style=\"margin-bottom: 0px\">Profile: <a href=\"StructureDefinition-hiv-diagnosis.html\">Diagnosis</a></p></div><p><b>identifier</b>: Patient internal identifier: abc123</p><p><b>clinicalStatus</b>: Active <span style=\"background: LightGoldenRodYellow; margin: 4px; border: 1px solid khaki\"> (<a href=\"http://terminology.hl7.org/5.0.0/CodeSystem-condition-clinical.html\">Condition Clinical Status Codes</a>#active)</span></p><p><b>verificationStatus</b>: Confirmed <span style=\"background: LightGoldenRodYellow; margin: 4px; border: 1px solid khaki\"> (<a href=\"http://terminology.hl7.org/5.0.0/CodeSystem-condition-ver-status.html\">ConditionVerificationStatus</a>#confirmed)</span></p><p><b>code</b>: Human immunodeficiency virus infection <span style=\"background: LightGoldenRodYellow; margin: 4px; border: 1px solid khaki\"> (<a href=\"https://browser.ihtsdotools.org/\">SNOMED CT</a>#86406008)</span></p><p><b>subject</b>: <a href=\"#Patient_HIVPatientExample\">See above (Patient/HIVPatientExample)</a></p><p><b>encounter</b>: <a href=\"#Encounter_TargetFacilityEncounterExample\">See above (Encounter/TargetFacilityEncounterExample)</a></p><p><b>recordedDate</b>: 2021-05-18</p><p><b>note</b>: Additional information regarding the HIV diagnosis (By Organization/HIVOrganizationExample @Feb 7, 2015, 6:28:17 PM)</p></div>"
      },
      "identifier" : [{
        "type" : {
          "coding" : [{
            "system" : "http://terminology.hl7.org/CodeSystem/v2-0203",
            "code" : "PI"
          }]
        },
        "system" : "http://openhie.org/fhir/hiv-cbs/identifier/hiv-diagnosis",
        "value" : "abc123"
      }],
      "clinicalStatus" : {
        "coding" : [{
          "system" : "http://terminology.hl7.org/CodeSystem/condition-clinical",
          "code" : "active"
        }]
      },
      "verificationStatus" : {
        "coding" : [{
          "system" : "http://terminology.hl7.org/CodeSystem/condition-ver-status",
          "code" : "confirmed"
        }]
      },
      "code" : {
        "coding" : [{
          "system" : "http://snomed.info/sct",
          "code" : "86406008"
        }]
      },
      "subject" : {
        "reference" : "Patient/HIVPatientExample"
      },
      "encounter" : {
        "reference" : "Encounter/TargetFacilityEncounterExample"
      },
      "recordedDate" : "2021-05-18",
      "note" : [{
        "authorReference" : {
          "reference" : "Organization/HIVOrganizationExample"
        },
        "time" : "2015-02-07T13:28:17-05:00",
        "text" : "Additional information regarding the HIV diagnosis"
      }]
    },
    "request" : {
      "method" : "PUT",
      "url" : "Condition/HIVDiagnosisExample"
    }
  },
  {
    "fullUrl" : "Observation/DeathExample",
    "resource" : {
      "resourceType" : "Observation",
      "id" : "DeathExample",
      "meta" : {
        "profile" : ["http://openhie.org/fhir/hiv-cbs/StructureDefinition/death"]
      },
      "text" : {
        "status" : "generated",
        "div" : "<div xmlns=\"http://www.w3.org/1999/xhtml\"><p><b>Generated Narrative: Observation</b><a name=\"DeathExample\"> </a></p><div style=\"display: inline-block; background-color: #d9e0e7; padding: 6px; margin: 4px; border: 1px solid #8da1b4; border-radius: 5px; line-height: 60%\"><p style=\"margin-bottom: 0px\">Resource Observation &quot;DeathExample&quot; </p><p style=\"margin-bottom: 0px\">Profile: <a href=\"StructureDefinition-death.html\">Patient Death</a></p></div><p><b>status</b>: final</p><p><b>code</b>: Death (event) <span style=\"background: LightGoldenRodYellow; margin: 4px; border: 1px solid khaki\"> (<a href=\"https://browser.ihtsdotools.org/\">SNOMED CT</a>#419620001)</span></p><p><b>subject</b>: <a href=\"#Patient_HIVPatientExample\">See above (Patient/HIVPatientExample)</a></p><p><b>encounter</b>: <a href=\"#Encounter_TargetFacilityEncounterExample\">See above (Encounter/TargetFacilityEncounterExample)</a></p><p><b>effective</b>: 2023-02-05</p><p><b>value</b>: Cause of death.underlying [Manual] <span style=\"background: LightGoldenRodYellow; margin: 4px; border: 1px solid khaki\"> (<a href=\"https://loinc.org/\">LOINC</a>#80359-3)</span></p><p><b>note</b>: Details regarding death (By Organization/HIVOrganizationExample @Feb 7, 2015, 6:28:17 PM)</p></div>"
      },
      "status" : "final",
      "code" : {
        "coding" : [{
          "system" : "http://snomed.info/sct",
          "code" : "419620001"
        }]
      },
      "subject" : {
        "reference" : "Patient/HIVPatientExample"
      },
      "encounter" : {
        "reference" : "Encounter/TargetFacilityEncounterExample"
      },
      "effectiveDateTime" : "2023-02-05",
      "valueCodeableConcept" : {
        "coding" : [{
          "system" : "http://loinc.org",
          "code" : "80359-3"
        }]
      },
      "note" : [{
        "authorReference" : {
          "reference" : "Organization/HIVOrganizationExample"
        },
        "time" : "2015-02-07T13:28:17-05:00",
        "text" : "Details regarding death"
      }]
    },
    "request" : {
      "method" : "PUT",
      "url" : "Observation/DeathExample"
    }
  },
  {
    "fullUrl" : "Observation/DateHIVTestDoneExample",
    "resource" : {
      "resourceType" : "Observation",
      "id" : "DateHIVTestDoneExample",
      "meta" : {
        "profile" : ["http://openhie.org/fhir/hiv-cbs/StructureDefinition/date-hiv-test-done"]
      },
      "text" : {
        "status" : "generated",
        "div" : "<div xmlns=\"http://www.w3.org/1999/xhtml\"><p><b>Generated Narrative: Observation</b><a name=\"DateHIVTestDoneExample\"> </a></p><div style=\"display: inline-block; background-color: #d9e0e7; padding: 6px; margin: 4px; border: 1px solid #8da1b4; border-radius: 5px; line-height: 60%\"><p style=\"margin-bottom: 0px\">Resource Observation &quot;DateHIVTestDoneExample&quot; </p><p style=\"margin-bottom: 0px\">Profile: <a href=\"StructureDefinition-date-hiv-test-done.html\">Date HIV Test Done</a></p></div><p><b>status</b>: final</p><p><b>code</b>: HIV viral load <span style=\"background: LightGoldenRodYellow; margin: 4px; border: 1px solid khaki\"> (<a href=\"https://browser.ihtsdotools.org/\">SNOMED CT</a>#315124004)</span></p><p><b>subject</b>: <a href=\"#Patient_HIVPatientExample\">See above (Patient/HIVPatientExample)</a></p><p><b>encounter</b>: <a href=\"#Encounter_TargetFacilityEncounterExample\">See above (Encounter/TargetFacilityEncounterExample)</a></p><p><b>effective</b>: 2022-12-10</p><p><b>note</b>: Additional information regarding the HIV test (By Organization/HIVOrganizationExample @Feb 7, 2015, 6:28:17 PM)</p></div>"
      },
      "status" : "final",
      "code" : {
        "coding" : [{
          "system" : "http://snomed.info/sct",
          "code" : "315124004"
        }]
      },
      "subject" : {
        "reference" : "Patient/HIVPatientExample"
      },
      "encounter" : {
        "reference" : "Encounter/TargetFacilityEncounterExample"
      },
      "effectiveDateTime" : "2022-12-10",
      "note" : [{
        "authorReference" : {
          "reference" : "Organization/HIVOrganizationExample"
        },
        "time" : "2015-02-07T13:28:17-05:00",
        "text" : "Additional information regarding the HIV test"
      }]
    },
    "request" : {
      "method" : "PUT",
      "url" : "Observation/DateHIVTestDoneExample"
    }
  },
  {
    "fullUrl" : "EpisodeOfCare/HIVEpisodeOfCareExample",
    "resource" : {
      "resourceType" : "EpisodeOfCare",
      "id" : "HIVEpisodeOfCareExample",
      "meta" : {
        "profile" : ["http://openhie.org/fhir/hiv-cbs/StructureDefinition/hiv-episode-of-care"]
      },
      "text" : {
        "status" : "generated",
        "div" : "<div xmlns=\"http://www.w3.org/1999/xhtml\"><p><b>Generated Narrative: EpisodeOfCare</b><a name=\"HIVEpisodeOfCareExample\"> </a></p><div style=\"display: inline-block; background-color: #d9e0e7; padding: 6px; margin: 4px; border: 1px solid #8da1b4; border-radius: 5px; line-height: 60%\"><p style=\"margin-bottom: 0px\">Resource EpisodeOfCare &quot;HIVEpisodeOfCareExample&quot; </p><p style=\"margin-bottom: 0px\">Profile: <a href=\"StructureDefinition-hiv-episode-of-care.html\">Patient Enrollment Type</a></p></div><p><b>identifier</b>: Patient internal identifier: abc123</p><p><b>status</b>: active</p><h3>Diagnoses</h3><table class=\"grid\"><tr><td>-</td><td><b>Condition</b></td></tr><tr><td>*</td><td><a href=\"#Condition_HIVDiagnosisExample\">See above (Condition/HIVDiagnosisExample)</a></td></tr></table><p><b>patient</b>: <a href=\"#Patient_HIVPatientExample\">See above (Patient/HIVPatientExample)</a></p><p><b>managingOrganization</b>: <a href=\"Organization-HIVOrganizationExample.html\">Organization/HIVOrganizationExample</a> &quot;HIV Test Services Health Facility&quot;</p><p><b>period</b>: 2021-05-18 --&gt; 2021-05-18</p></div>"
      },
      "identifier" : [{
        "type" : {
          "coding" : [{
            "system" : "http://terminology.hl7.org/CodeSystem/v2-0203",
            "code" : "PI"
          }]
        },
        "system" : "http://openhie.org/fhir/hiv-cbs/identifier/enrollment-unique-id",
        "value" : "abc123"
      }],
      "status" : "active",
      "diagnosis" : [{
        "condition" : {
          "reference" : "Condition/HIVDiagnosisExample"
        }
      }],
      "patient" : {
        "reference" : "Patient/HIVPatientExample"
      },
      "managingOrganization" : {
        "reference" : "Organization/HIVOrganizationExample"
      },
      "period" : {
        "start" : "2021-05-18",
        "end" : "2021-05-18"
      }
    },
    "request" : {
      "method" : "PUT",
      "url" : "EpisodeOfCare/HIVEpisodeOfCareExample"
    }
  },
  {
    "fullUrl" : "Observation/HIVRecencyTestDoneExample",
    "resource" : {
      "resourceType" : "Observation",
      "id" : "HIVRecencyTestDoneExample",
      "meta" : {
        "profile" : ["http://openhie.org/fhir/hiv-cbs/StructureDefinition/hiv-recency-test-done"]
      },
      "text" : {
        "status" : "generated",
        "div" : "<div xmlns=\"http://www.w3.org/1999/xhtml\"><p><b>Generated Narrative: Observation</b><a name=\"HIVRecencyTestDoneExample\"> </a></p><div style=\"display: inline-block; background-color: #d9e0e7; padding: 6px; margin: 4px; border: 1px solid #8da1b4; border-radius: 5px; line-height: 60%\"><p style=\"margin-bottom: 0px\">Resource Observation &quot;HIVRecencyTestDoneExample&quot; </p><p style=\"margin-bottom: 0px\">Profile: <a href=\"StructureDefinition-hiv-recency-test-done.html\">HIV Recency Test</a></p></div><p><b>status</b>: final</p><p><b>code</b>: Rapid HIV-1 antibody test <span style=\"background: LightGoldenRodYellow; margin: 4px; border: 1px solid khaki\"> (<a href=\"https://browser.ihtsdotools.org/\">SNOMED CT</a>#409788009)</span></p><p><b>subject</b>: <a href=\"#Patient_HIVPatientExample\">See above (Patient/HIVPatientExample)</a></p><p><b>encounter</b>: <a href=\"#Encounter_TargetFacilityEncounterExample\">See above (Encounter/TargetFacilityEncounterExample)</a></p><p><b>effective</b>: 2022-12-10</p><p><b>value</b>: Yes (qualifier value) <span style=\"background: LightGoldenRodYellow; margin: 4px; border: 1px solid khaki\"> (<a href=\"https://browser.ihtsdotools.org/\">SNOMED CT</a>#373066001)</span></p><p><b>note</b>: Additional information regarding the HIV recency test (By Organization/HIVOrganizationExample @Feb 7, 2015, 6:28:17 PM)</p></div>"
      },
      "status" : "final",
      "code" : {
        "coding" : [{
          "system" : "http://snomed.info/sct",
          "code" : "409788009"
        }]
      },
      "subject" : {
        "reference" : "Patient/HIVPatientExample"
      },
      "encounter" : {
        "reference" : "Encounter/TargetFacilityEncounterExample"
      },
      "effectiveDateTime" : "2022-12-10",
      "valueCodeableConcept" : {
        "coding" : [{
          "system" : "http://snomed.info/sct",
          "code" : "373066001"
        }]
      },
      "note" : [{
        "authorReference" : {
          "reference" : "Organization/HIVOrganizationExample"
        },
        "time" : "2015-02-07T13:28:17-05:00",
        "text" : "Additional information regarding the HIV recency test"
      }]
    },
    "request" : {
      "method" : "PUT",
      "url" : "Observation/HIVRecencyTestDoneExample"
    }
  },
  {
    "fullUrl" : "Observation/HIVRecencyTestResultExample",
    "resource" : {
      "resourceType" : "Observation",
      "id" : "HIVRecencyTestResultExample",
      "meta" : {
        "profile" : ["http://openhie.org/fhir/hiv-cbs/StructureDefinition/hiv-recency-test-result"]
      },
      "text" : {
        "status" : "generated",
        "div" : "<div xmlns=\"http://www.w3.org/1999/xhtml\"><p><b>Generated Narrative: Observation</b><a name=\"HIVRecencyTestResultExample\"> </a></p><div style=\"display: inline-block; background-color: #d9e0e7; padding: 6px; margin: 4px; border: 1px solid #8da1b4; border-radius: 5px; line-height: 60%\"><p style=\"margin-bottom: 0px\">Resource Observation &quot;HIVRecencyTestResultExample&quot; </p><p style=\"margin-bottom: 0px\">Profile: <a href=\"StructureDefinition-hiv-recency-test-result.html\">HIV Recency Test Result</a></p></div><p><b>status</b>: final</p><p><b>code</b>: Rapid HIV-1 antibody test <span style=\"background: LightGoldenRodYellow; margin: 4px; border: 1px solid khaki\"> (<a href=\"https://browser.ihtsdotools.org/\">SNOMED CT</a>#409788009)</span></p><p><b>subject</b>: <a href=\"#Patient_HIVPatientExample\">See above (Patient/HIVPatientExample)</a></p><p><b>encounter</b>: <a href=\"#Encounter_TargetFacilityEncounterExample\">See above (Encounter/TargetFacilityEncounterExample)</a></p><p><b>effective</b>: 2022-12-10</p><p><b>performer</b>: <a href=\"Organization-HIVOrganizationExample.html\">Organization/HIVOrganizationExample</a> &quot;HIV Test Services Health Facility&quot;</p><p><b>value</b>: Laboratory test finding <span style=\"background: LightGoldenRodYellow; margin: 4px; border: 1px solid khaki\"> (<a href=\"https://browser.ihtsdotools.org/\">SNOMED CT</a>#118246004)</span></p><p><b>interpretation</b>: Recent <span style=\"background: LightGoldenRodYellow; margin: 4px; border: 1px solid khaki\"> (<a href=\"https://browser.ihtsdotools.org/\">SNOMED CT</a>#6493001)</span></p><p><b>note</b>: Additional information regarding the HIV recency test result (By Organization/HIVOrganizationExample @Feb 7, 2015, 6:28:17 PM)</p></div>"
      },
      "status" : "final",
      "code" : {
        "coding" : [{
          "system" : "http://snomed.info/sct",
          "code" : "409788009"
        }]
      },
      "subject" : {
        "reference" : "Patient/HIVPatientExample"
      },
      "encounter" : {
        "reference" : "Encounter/TargetFacilityEncounterExample"
      },
      "effectiveDateTime" : "2022-12-10",
      "performer" : [{
        "reference" : "Organization/HIVOrganizationExample"
      }],
      "valueCodeableConcept" : {
        "coding" : [{
          "system" : "http://snomed.info/sct",
          "code" : "118246004"
        }]
      },
      "interpretation" : [{
        "coding" : [{
          "system" : "http://snomed.info/sct",
          "code" : "6493001"
        }]
      }],
      "note" : [{
        "authorReference" : {
          "reference" : "Organization/HIVOrganizationExample"
        },
        "time" : "2015-02-07T13:28:17-05:00",
        "text" : "Additional information regarding the HIV recency test result"
      }]
    },
    "request" : {
      "method" : "PUT",
      "url" : "Observation/HIVRecencyTestResultExample"
    }
  },
  {
    "fullUrl" : "Observation/CD4PercentageExample",
    "resource" : {
      "resourceType" : "Observation",
      "id" : "CD4PercentageExample",
      "meta" : {
        "profile" : ["http://openhie.org/fhir/hiv-cbs/StructureDefinition/hiv-cd4-percentage"]
      },
      "text" : {
        "status" : "generated",
        "div" : "<div xmlns=\"http://www.w3.org/1999/xhtml\"><p><b>Generated Narrative: Observation</b><a name=\"CD4PercentageExample\"> </a></p><div style=\"display: inline-block; background-color: #d9e0e7; padding: 6px; margin: 4px; border: 1px solid #8da1b4; border-radius: 5px; line-height: 60%\"><p style=\"margin-bottom: 0px\">Resource Observation &quot;CD4PercentageExample&quot; </p><p style=\"margin-bottom: 0px\">Profile: <a href=\"StructureDefinition-hiv-cd4-percentage.html\">CD4 Percentage</a></p></div><p><b>status</b>: final</p><p><b>code</b>: Percentage CD4 count <span style=\"background: LightGoldenRodYellow; margin: 4px; border: 1px solid khaki\"> (<a href=\"https://browser.ihtsdotools.org/\">SNOMED CT</a>#313938009)</span></p><p><b>subject</b>: <a href=\"#Patient_HIVPatientExample\">See above (Patient/HIVPatientExample)</a></p><p><b>encounter</b>: <a href=\"#Encounter_TargetFacilityEncounterExample\">See above (Encounter/TargetFacilityEncounterExample)</a></p><p><b>effective</b>: 2022-12-10</p><p><b>performer</b>: <a href=\"Organization-HIVOrganizationExample.html\">Organization/HIVOrganizationExample</a> &quot;HIV Test Services Health Facility&quot;</p><p><b>value</b>: 45.23</p><p><b>note</b>: Additional information regarding the CD4 Percentage (By Organization/HIVOrganizationExample @Feb 7, 2015, 6:28:17 PM)</p><p><b>derivedFrom</b>: <a href=\"#Observation_CD4TestResultExample\">See above (Observation/CD4TestResultExample)</a></p></div>"
      },
      "status" : "final",
      "code" : {
        "coding" : [{
          "system" : "http://snomed.info/sct",
          "code" : "313938009"
        }]
      },
      "subject" : {
        "reference" : "Patient/HIVPatientExample"
      },
      "encounter" : {
        "reference" : "Encounter/TargetFacilityEncounterExample"
      },
      "effectiveDateTime" : "2022-12-10",
      "performer" : [{
        "reference" : "Organization/HIVOrganizationExample"
      }],
      "valueQuantity" : {
        "value" : 45.23
      },
      "note" : [{
        "authorReference" : {
          "reference" : "Organization/HIVOrganizationExample"
        },
        "time" : "2015-02-07T13:28:17-05:00",
        "text" : "Additional information regarding the CD4 Percentage"
      }],
      "derivedFrom" : [{
        "reference" : "Observation/CD4TestResultExample"
      }]
    },
    "request" : {
      "method" : "PUT",
      "url" : "Observation/CD4PercentageExample"
    }
  },
  {
    "fullUrl" : "Observation/CD4TestResultExample",
    "resource" : {
      "resourceType" : "Observation",
      "id" : "CD4TestResultExample",
      "meta" : {
        "profile" : ["http://openhie.org/fhir/hiv-cbs/StructureDefinition/hiv-cd4-test"]
      },
      "text" : {
        "status" : "generated",
        "div" : "<div xmlns=\"http://www.w3.org/1999/xhtml\"><p><b>Generated Narrative: Observation</b><a name=\"CD4TestResultExample\"> </a></p><div style=\"display: inline-block; background-color: #d9e0e7; padding: 6px; margin: 4px; border: 1px solid #8da1b4; border-radius: 5px; line-height: 60%\"><p style=\"margin-bottom: 0px\">Resource Observation &quot;CD4TestResultExample&quot; </p><p style=\"margin-bottom: 0px\">Profile: <a href=\"StructureDefinition-hiv-cd4-test.html\">Absolute CD4 Count</a></p></div><p><b>status</b>: final</p><p><b>code</b>: Blood test measurement abnormal <span style=\"background: LightGoldenRodYellow; margin: 4px; border: 1px solid khaki\"> (<a href=\"https://browser.ihtsdotools.org/\">SNOMED CT</a>#151271000119102)</span></p><p><b>subject</b>: <a href=\"#Patient_HIVPatientExample\">See above (Patient/HIVPatientExample)</a></p><p><b>encounter</b>: <a href=\"#Encounter_TargetFacilityEncounterExample\">See above (Encounter/TargetFacilityEncounterExample)</a></p><p><b>effective</b>: 2022-12-10</p><p><b>performer</b>: <a href=\"Organization-HIVOrganizationExample.html\">Organization/HIVOrganizationExample</a> &quot;HIV Test Services Health Facility&quot;</p><p><b>value</b>: 650</p><p><b>note</b>: Additional information regarding the CD4 Count (By Organization/HIVOrganizationExample @Feb 7, 2015, 6:28:17 PM)</p></div>"
      },
      "status" : "final",
      "code" : {
        "coding" : [{
          "system" : "http://snomed.info/sct",
          "code" : "151271000119102"
        }]
      },
      "subject" : {
        "reference" : "Patient/HIVPatientExample"
      },
      "encounter" : {
        "reference" : "Encounter/TargetFacilityEncounterExample"
      },
      "effectiveDateTime" : "2022-12-10",
      "performer" : [{
        "reference" : "Organization/HIVOrganizationExample"
      }],
      "valueInteger" : 650,
      "note" : [{
        "authorReference" : {
          "reference" : "Organization/HIVOrganizationExample"
        },
        "time" : "2015-02-07T13:28:17-05:00",
        "text" : "Additional information regarding the CD4 Count"
      }]
    },
    "request" : {
      "method" : "PUT",
      "url" : "Observation/CD4TestResultExample"
    }
  },
  {
    "fullUrl" : "CarePlan/ARVTreatmentRegimenSwitchedOrSubstitutedExample",
    "resource" : {
      "resourceType" : "CarePlan",
      "id" : "ARVTreatmentRegimenSwitchedOrSubstitutedExample",
      "meta" : {
        "profile" : ["http://openhie.org/fhir/hiv-cbs/StructureDefinition/hiv-arv-treatment"]
      },
      "text" : {
        "status" : "generated",
        "div" : "<div xmlns=\"http://www.w3.org/1999/xhtml\"><p><b>Generated Narrative: CarePlan</b><a name=\"ARVTreatmentRegimenSwitchedOrSubstitutedExample\"> </a></p><div style=\"display: inline-block; background-color: #d9e0e7; padding: 6px; margin: 4px; border: 1px solid #8da1b4; border-radius: 5px; line-height: 60%\"><p style=\"margin-bottom: 0px\">Resource CarePlan &quot;ARVTreatmentRegimenSwitchedOrSubstitutedExample&quot; </p><p style=\"margin-bottom: 0px\">Profile: <a href=\"StructureDefinition-hiv-arv-treatment.html\">ARV Treatment</a></p></div><p><b>status</b>: active</p><p><b>intent</b>: plan</p><p><b>subject</b>: <a href=\"#Patient_HIVPatientExample\">See above (Patient/HIVPatientExample)</a></p><p><b>encounter</b>: <a href=\"#Encounter_TargetFacilityEncounterExample\">See above (Encounter/TargetFacilityEncounterExample)</a></p><p><b>period</b>: 2022-12-01 --&gt; 2022-12-01</p><blockquote><p><b>activity</b></p><h3>Details</h3><table class=\"grid\"><tr><td>-</td><td><b>Extension</b></td><td><b>Kind</b></td><td><b>Code</b></td><td><b>Status</b></td><td><b>Scheduled[x]</b></td><td><b>Product[x]</b></td></tr><tr><td>*</td><td>, </td><td>MedicationRequest</td><td>HIV ART medication <span style=\"background: LightGoldenRodYellow; margin: 4px; border: 1px solid khaki\"> (<a href=\"https://loinc.org/\">LOINC</a>#45260-7)</span></td><td>in-progress</td><td>2023-01-01 --&gt; 2023-01-01</td><td>ARV regimen <span style=\"background: LightGoldenRodYellow; margin: 4px; border: 1px solid khaki\"> (<a href=\"https://browser.ihtsdotools.org/\">SNOMED CT</a>#387005008 &quot;Abacavir&quot;)</span></td></tr></table></blockquote><p><b>note</b>: Additional information regarding the switching of the ARV regimen with another ARV regimen. (By Organization/HIVOrganizationExample @Feb 7, 2015, 6:28:17 PM)</p></div>"
      },
      "status" : "active",
      "intent" : "plan",
      "subject" : {
        "reference" : "Patient/HIVPatientExample"
      },
      "encounter" : {
        "reference" : "Encounter/TargetFacilityEncounterExample"
      },
      "period" : {
        "start" : "2022-12-01",
        "end" : "2022-12-01"
      },
      "activity" : [{
        "detail" : {
          "extension" : [{
            "url" : "http://openhie.org/fhir/hiv-cbs/StructureDefinition/art-regimen-line",
            "valueCodeableConcept" : {
              "coding" : [{
                "system" : "http://snomed.info/sct",
                "code" : "708255002",
                "display" : "First line treatment (procedure)"
              }],
              "text" : "ART therapeutic line"
            }
          },
          {
            "url" : "http://openhie.org/fhir/hiv-cbs/StructureDefinition/art-regimen-switched-or-substituted",
            "valueCodeableConcept" : {
              "coding" : [{
                "system" : "http://openhie.org/fhir/hiv-cbs/CodeSystem/cs-art-regimen-change-type",
                "code" : "Switched",
                "display" : "ARV Regimen Switched"
              }],
              "text" : "ARV regimen change"
            }
          }],
          "kind" : "MedicationRequest",
          "code" : {
            "coding" : [{
              "system" : "http://loinc.org",
              "code" : "45260-7"
            }]
          },
          "status" : "in-progress",
          "scheduledPeriod" : {
            "start" : "2023-01-01",
            "end" : "2023-01-01"
          },
          "productCodeableConcept" : {
            "coding" : [{
              "system" : "http://snomed.info/sct",
              "code" : "387005008",
              "display" : "Abacavir"
            }],
            "text" : "ARV regimen"
          }
        }
      }],
      "note" : [{
        "authorReference" : {
          "reference" : "Organization/HIVOrganizationExample"
        },
        "time" : "2015-02-07T13:28:17-05:00",
        "text" : "Additional information regarding the switching of the ARV regimen with another ARV regimen."
      }]
    },
    "request" : {
      "method" : "PUT",
      "url" : "CarePlan/ARVTreatmentRegimenSwitchedOrSubstitutedExample"
    }
  },
  {
    "fullUrl" : "MedicationRequest/HIVCareMedicationRequestExample",
    "resource" : {
      "resourceType" : "MedicationRequest",
      "id" : "HIVCareMedicationRequestExample",
      "meta" : {
        "profile" : ["http://openhie.org/fhir/hiv-cbs/StructureDefinition/hiv-med-req"]
      },
      "text" : {
        "status" : "generated",
        "div" : "<div xmlns=\"http://www.w3.org/1999/xhtml\"><p><b>Generated Narrative: MedicationRequest</b><a name=\"HIVCareMedicationRequestExample\"> </a></p><div style=\"display: inline-block; background-color: #d9e0e7; padding: 6px; margin: 4px; border: 1px solid #8da1b4; border-radius: 5px; line-height: 60%\"><p style=\"margin-bottom: 0px\">Resource MedicationRequest &quot;HIVCareMedicationRequestExample&quot; </p><p style=\"margin-bottom: 0px\">Profile: <a href=\"StructureDefinition-hiv-med-req.html\">HIV Care Medication Request</a></p></div><p><b>status</b>: active</p><p><b>intent</b>: proposal</p><p><b>medication</b>: Atazanavir and ritonavir only product <span style=\"background: LightGoldenRodYellow; margin: 4px; border: 1px solid khaki\"> (<a href=\"https://browser.ihtsdotools.org/\">SNOMED CT</a>#878898002)</span></p><p><b>subject</b>: <a href=\"#Patient_HIVPatientExample\">See above (Patient/HIVPatientExample)</a></p><p><b>encounter</b>: <a href=\"#Encounter_TargetFacilityEncounterExample\">See above (Encounter/TargetFacilityEncounterExample)</a></p><p><b>basedOn</b>: <a href=\"#CarePlan_ARVTreatmentRegimenSwitchedOrSubstitutedExample\">See above (CarePlan/ARVTreatmentRegimenSwitchedOrSubstitutedExample)</a></p><p><b>note</b>: Additional information regarding the HIV Medication Request (By Organization/HIVOrganizationExample @Feb 7, 2015, 6:28:17 PM)</p><h3>DispenseRequests</h3><table class=\"grid\"><tr><td>-</td><td><b>Quantity</b></td></tr><tr><td>*</td><td>30</td></tr></table></div>"
      },
      "status" : "active",
      "intent" : "proposal",
      "medicationCodeableConcept" : {
        "coding" : [{
          "system" : "http://snomed.info/sct",
          "code" : "878898002"
        }]
      },
      "subject" : {
        "reference" : "Patient/HIVPatientExample"
      },
      "encounter" : {
        "reference" : "Encounter/TargetFacilityEncounterExample"
      },
      "basedOn" : [{
        "reference" : "CarePlan/ARVTreatmentRegimenSwitchedOrSubstitutedExample"
      }],
      "note" : [{
        "authorReference" : {
          "reference" : "Organization/HIVOrganizationExample"
        },
        "time" : "2015-02-07T13:28:17-05:00",
        "text" : "Additional information regarding the HIV Medication Request"
      }],
      "dispenseRequest" : {
        "quantity" : {
          "value" : 30
        }
      }
    },
    "request" : {
      "method" : "PUT",
      "url" : "MedicationRequest/HIVCareMedicationRequestExample"
    }
  },
  {
    "fullUrl" : "ServiceRequest/TransferredOutServiceRequestExample",
    "resource" : {
      "resourceType" : "ServiceRequest",
      "id" : "TransferredOutServiceRequestExample",
      "meta" : {
        "profile" : ["http://openhie.org/fhir/hiv-cbs/StructureDefinition/transferred-out"]
      },
      "text" : {
        "status" : "generated",
        "div" : "<div xmlns=\"http://www.w3.org/1999/xhtml\"><p><b>Generated Narrative: ServiceRequest</b><a name=\"TransferredOutServiceRequestExample\"> </a></p><div style=\"display: inline-block; background-color: #d9e0e7; padding: 6px; margin: 4px; border: 1px solid #8da1b4; border-radius: 5px; line-height: 60%\"><p style=\"margin-bottom: 0px\">Resource ServiceRequest &quot;TransferredOutServiceRequestExample&quot; </p><p style=\"margin-bottom: 0px\">Profile: <a href=\"StructureDefinition-transferred-out.html\">Transferred Out Service Request</a></p></div><p><b>status</b>: completed</p><p><b>intent</b>: order</p><p><b>code</b>: Transferred to another hospital <span style=\"background: LightGoldenRodYellow; margin: 4px; border: 1px solid khaki\"> (<a href=\"https://loinc.org/\">LOINC</a>#LA20597-3)</span></p><p><b>subject</b>: <a href=\"#Patient_HIVPatientExample\">See above (Patient/HIVPatientExample)</a></p><p><b>encounter</b>: <a href=\"#Encounter_TargetFacilityEncounterExample\">See above (Encounter/TargetFacilityEncounterExample)</a></p><p><b>occurrence</b>: 2012-01-05</p><p><b>requester</b>: <a href=\"Practitioner-PractitionerExample.html\">Practitioner/PractitionerExample</a> &quot; SMITH&quot;</p><p><b>performer</b>: <a href=\"#Organization_HIVOrganizationPatientTransferredToExample\">See above (Organization/HIVOrganizationPatientTransferredToExample)</a></p><p><b>note</b>: additional notes about the transfer (By Organization/HIVOrganizationExample @Feb 7, 2015, 6:28:17 PM)</p></div>"
      },
      "status" : "completed",
      "intent" : "order",
      "code" : {
        "coding" : [{
          "system" : "http://loinc.org",
          "code" : "LA20597-3"
        }]
      },
      "subject" : {
        "reference" : "Patient/HIVPatientExample"
      },
      "encounter" : {
        "reference" : "Encounter/TargetFacilityEncounterExample"
      },
      "occurrenceDateTime" : "2012-01-05",
      "requester" : {
        "reference" : "Practitioner/PractitionerExample"
      },
      "performer" : [{
        "reference" : "Organization/HIVOrganizationPatientTransferredToExample"
      }],
      "note" : [{
        "authorReference" : {
          "reference" : "Organization/HIVOrganizationExample"
        },
        "time" : "2015-02-07T13:28:17-05:00",
        "text" : "additional notes about the transfer"
      }]
    },
    "request" : {
      "method" : "PUT",
      "url" : "ServiceRequest/TransferredOutServiceRequestExample"
    }
  },
  {
    "fullUrl" : "Organization/HIVOrganizationPatientTransferredToExample",
    "resource" : {
      "resourceType" : "Organization",
      "id" : "HIVOrganizationPatientTransferredToExample",
      "meta" : {
        "profile" : ["http://openhie.org/fhir/hiv-cbs/StructureDefinition/hiv-organization-patient-transferred-to"]
      },
      "text" : {
        "status" : "generated",
        "div" : "<div xmlns=\"http://www.w3.org/1999/xhtml\"><p><b>Generated Narrative: Organization</b><a name=\"HIVOrganizationPatientTransferredToExample\"> </a></p><div style=\"display: inline-block; background-color: #d9e0e7; padding: 6px; margin: 4px; border: 1px solid #8da1b4; border-radius: 5px; line-height: 60%\"><p style=\"margin-bottom: 0px\">Resource Organization &quot;HIVOrganizationPatientTransferredToExample&quot; </p><p style=\"margin-bottom: 0px\">Profile: <a href=\"StructureDefinition-hiv-organization-patient-transferred-to.html\">HIV Organization Patient Is Transferred To</a></p></div><p><b>identifier</b>: Organization identifier: facility1</p><p><b>name</b>: HIV Test Services Health Facility</p><p><b>address</b>: DISI line 1 DISI line 2 DISI line 3 DISI city 1 DISI state 1 DISI postal code DISI country </p></div>"
      },
      "identifier" : [{
        "type" : {
          "coding" : [{
            "system" : "http://terminology.hl7.org/CodeSystem/v2-0203",
            "code" : "XX"
          }]
        },
        "system" : "http://openhie.org/fhir/hiv-cbs/identifier/hiv-organization",
        "value" : "facility1"
      }],
      "name" : "HIV Test Services Health Facility",
      "address" : [{
        "line" : ["DISI line 1",
        "DISI line 2",
        "DISI line 3"],
        "city" : "DISI city 1",
        "district" : "DISI district 1",
        "state" : "DISI state 1",
        "postalCode" : "DISI postal code",
        "country" : "DISI country"
      }]
    },
    "request" : {
      "method" : "PUT",
      "url" : "Organization/HIVOrganizationPatientTransferredToExample"
    }
  },
  {
    "fullUrl" : "Observation/HIVTestResultExample",
    "resource" : {
      "resourceType" : "Observation",
      "id" : "HIVTestResultExample",
      "meta" : {
        "profile" : ["http://openhie.org/fhir/hiv-cbs/StructureDefinition/hiv-test-results"]
      },
      "text" : {
        "status" : "generated",
        "div" : "<div xmlns=\"http://www.w3.org/1999/xhtml\"><p><b>Generated Narrative: Observation</b><a name=\"HIVTestResultExample\"> </a></p><div style=\"display: inline-block; background-color: #d9e0e7; padding: 6px; margin: 4px; border: 1px solid #8da1b4; border-radius: 5px; line-height: 60%\"><p style=\"margin-bottom: 0px\">Resource Observation &quot;HIVTestResultExample&quot; </p><p style=\"margin-bottom: 0px\">Profile: <a href=\"StructureDefinition-hiv-test-results.html\">Lab Results</a></p></div><p><b>status</b>: final</p><p><b>code</b>: Viral Load Result <span style=\"background: LightGoldenRodYellow; margin: 4px; border: 1px solid khaki\"> (<a href=\"https://browser.ihtsdotools.org/\">SNOMED CT</a>#398579006 &quot;Human immunodeficiency virus-1 nucleic acid assay&quot;)</span></p><p><b>subject</b>: <a href=\"#Patient_HIVPatientExample\">See above (Patient/HIVPatientExample)</a></p><p><b>encounter</b>: <a href=\"#Encounter_TargetFacilityEncounterExample\">See above (Encounter/TargetFacilityEncounterExample)</a></p><p><b>effective</b>: 2022-11-30</p><p><b>performer</b>: <a href=\"Organization-HIVOrganizationExample.html\">Organization/HIVOrganizationExample</a> &quot;HIV Test Services Health Facility&quot;</p><p><b>value</b>: 1001</p><p><b>interpretation</b>: Viral Load Suppression Status <span style=\"background: LightGoldenRodYellow; margin: 4px; border: 1px solid khaki\"> (<a href=\"https://browser.ihtsdotools.org/\">SNOMED CT</a>#19032002 &quot;Uncontrolled&quot;)</span></p><p><b>note</b>: Viral load not suppressed (By Organization/HIVOrganizationExample @Feb 7, 2015, 6:28:17 PM)</p></div>"
      },
      "status" : "final",
      "code" : {
        "coding" : [{
          "system" : "http://snomed.info/sct",
          "code" : "398579006",
          "display" : "Human immunodeficiency virus-1 nucleic acid assay"
        }],
        "text" : "Viral Load Result"
      },
      "subject" : {
        "reference" : "Patient/HIVPatientExample"
      },
      "encounter" : {
        "reference" : "Encounter/TargetFacilityEncounterExample"
      },
      "effectiveDateTime" : "2022-11-30",
      "performer" : [{
        "reference" : "Organization/HIVOrganizationExample"
      }],
      "valueInteger" : 1001,
      "interpretation" : [{
        "coding" : [{
          "system" : "http://snomed.info/sct",
          "code" : "19032002",
          "display" : "Uncontrolled"
        }],
        "text" : "Viral Load Suppression Status"
      }],
      "note" : [{
        "authorReference" : {
          "reference" : "Organization/HIVOrganizationExample"
        },
        "time" : "2015-02-07T13:28:17-05:00",
        "text" : "Viral load not suppressed"
      }]
    },
    "request" : {
      "method" : "PUT",
      "url" : "Observation/HIVTestResultExample"
    }
  }]
}